{"resourceType":"Bundle","id":"ExampleGDUFAFacilityIdentification","meta":{"profile":["http://hl7.org/fhir/us/spl/StructureDefinition/GDUFAFacilityIdentificationBundle"]},"type":"message","timestamp":"2021-08-11T01:01:01.111+06:00","entry":[{"fullUrl":"http://example.org/MessageHeader/SampleGDUFAFacilityIdentificationMessage","resource":{"resourceType":"MessageHeader","id":"SampleGDUFAFacilityIdentificationMessage","meta":{"profile":["http://hl7.org/fhir/us/spl/StructureDefinition/GDUFAFacilityIdentificationMessage"]},"text":{"status":"generated","div":"<div xmlns=\"http://www.w3.org/1999/xhtml\"><p><b>Generated Narrative</b></p><p><b>event</b>: <span title=\"{http://loinc.org 72090-4}\">Identification of CBER-regulated generic drug facility</span></p><h3>Sources</h3><table class=\"grid\"><tr><td>-</td><td><b>Endpoint</b></td></tr><tr><td>*</td><td><a href=\"http://example.org/\">http://example.org/</a></td></tr></table><p><b>focus</b>: </p><ul><li><a href=\"#Organization_ExampleGDUFARegistrant\">See above (Organization/ExampleGDUFARegistrant)</a></li><li><a href=\"#Organization_ExampleGDUFAFacility\">See above (Organization/ExampleGDUFAFacility)</a></li></ul></div>"},"eventCoding":{"system":"http://loinc.org","code":"72090-4","display":"Identification of CBER-regulated generic drug facility"},"source":{"endpoint":"http://example.org/"},"focus":[{"reference":"Organization/ExampleGDUFARegistrant"},{"reference":"Organization/ExampleGDUFAFacility"}]}},{"fullUrl":"http://example.org/Organization/ExampleGDUFARegistrant","resource":{"resourceType":"Organization","id":"ExampleGDUFARegistrant","meta":{"profile":["http://hl7.org/fhir/us/spl/StructureDefinition/GDUFARegistrantOrganization"]},"text":{"status":"generated","div":"<div xmlns=\"http://www.w3.org/1999/xhtml\"><p><b>Generated Narrative</b></p><p><b>identifier</b>: id: 111111111</p><p><b>type</b>: <span title=\"Codes: {http://hl7.org/fhir/us/spl/CodeSystem/codesystem-organizationTypes GDUFARegistrant}\">An organization that registers generic druge use facility organizations.</span></p><p><b>name</b>: REGISTRANT SERVICES INC</p><h3>Contacts</h3><table class=\"grid\"><tr><td>-</td><td><b>Name</b></td><td><b>Telecom</b></td><td><b>Address</b></td></tr><tr><td>*</td><td>Charles Smith</td><td><a href=\"tel:+1-703-362-1280\">+1-703-362-1280</a>, <a href=\"mailto:charles@anywhere.com\">charles@anywhere.com</a></td><td>123 IVY LANE ROAD SMITH FALLS MD 12345 USA </td></tr></table></div>"},"identifier":[{"system":"urn:oid:1.3.6.1.4.1.519.1","value":"111111111"}],"type":[{"coding":[{"system":"http://hl7.org/fhir/us/spl/CodeSystem/codesystem-organizationTypes","code":"GDUFARegistrant"}]}],"name":"REGISTRANT SERVICES INC","contact":[{"name":{"text":"Charles Smith"},"telecom":[{"system":"phone","value":"+1-703-362-1280"},{"system":"email","value":"charles@anywhere.com"}],"address":{"line":["123 IVY LANE ROAD"],"city":"SMITH FALLS","state":"MD","postalCode":"12345","country":"USA"}}]}},{"fullUrl":"http://example.org/Organization/ExampleGDUFAFacility","resource":{"resourceType":"Organization","id":"ExampleGDUFAFacility","meta":{"profile":["http://hl7.org/fhir/us/spl/StructureDefinition/GDUFAFacilityOrganization"]},"text":{"status":"generated","div":"<div xmlns=\"http://www.w3.org/1999/xhtml\"><p><b>Generated Narrative</b></p><p><b>identifier</b>: id: 222222222, id: 1234567</p><p><b>type</b>: <span title=\"Codes: {http://hl7.org/fhir/us/spl/CodeSystem/codesystem-organizationTypes GenericDrugUseFacility}\">An organization that produces generic drug products.</span></p><p><b>name</b>: EXAMPLE GDUFA FACILITY INC.</p><p><b>address</b>: 111 SOUTH PARK STREET YAKIMA WA 23456 USA </p><h3>Contacts</h3><table class=\"grid\"><tr><td>-</td><td><b>Name</b></td><td><b>Telecom</b></td><td><b>Address</b></td></tr><tr><td>*</td><td>Charles Smith</td><td><a href=\"tel:+1-703-362-1280\">+1-703-362-1280</a>, <a href=\"mailto:charles@anywhere.com\">charles@anywhere.com</a></td><td>123 IVY LANE ROAD SMITH FALLS MD 12345 USA </td></tr></table></div>"},"contained":[{"resourceType":"HealthcareService","id":"ExampleGDUFAFacilityOperation","meta":{"profile":["http://hl7.org/fhir/us/spl/StructureDefinition/GDUFAFacilityBusinessOperation"]},"providedBy":{"reference":"#"},"type":[{"coding":[{"system":"http://ncicb.nci.nih.gov/xml/owl/EVS/Thesaurus.owl","code":"C82401","display":"API Manufacture"}]}],"serviceProvisionCode":[{"coding":[{"system":"http://ncicb.nci.nih.gov/xml/owl/EVS/Thesaurus.owl","code":"C101886","display":"manufactures non-generics"}]}]}],"identifier":[{"system":"urn:oid:1.3.6.1.4.1.519.1","value":"222222222"},{"system":"urn:oid:2.16.840.1.113883.4.82","value":"1234567"}],"type":[{"coding":[{"system":"http://hl7.org/fhir/us/spl/CodeSystem/codesystem-organizationTypes","code":"GenericDrugUseFacility"}]}],"name":"EXAMPLE GDUFA FACILITY INC.","address":[{"line":["111 SOUTH PARK STREET"],"city":"YAKIMA","state":"WA","postalCode":"23456","country":"USA"}],"contact":[{"name":{"text":"Charles Smith"},"telecom":[{"system":"phone","value":"+1-703-362-1280"},{"system":"email","value":"charles@anywhere.com"}],"address":{"line":["123 IVY LANE ROAD"],"city":"SMITH FALLS","state":"MD","postalCode":"12345","country":"USA"}}]}}]}