{"resourceType":"Bundle","id":"SampleEstablishmentInactivationBundle","meta":{"profile":["http://hl7.org/fhir/us/spl/StructureDefinition/EstablishmentInactivationBundle"]},"type":"message","timestamp":"2021-08-11T01:01:01.111+06:00","entry":[{"fullUrl":"http://example.org/MessageHeader/SampleEstablishmentInactivationMessage","resource":{"resourceType":"MessageHeader","id":"SampleEstablishmentInactivationMessage","meta":{"profile":["http://hl7.org/fhir/us/spl/StructureDefinition/EstablishmentInactivationMessage"]},"text":{"status":"generated","div":"<div xmlns=\"http://www.w3.org/1999/xhtml\"><p><b>Generated Narrative</b></p><p><b>event</b>: <span title=\"{http://hl7.org/fhir/us/spl/CodeSystem/codesystem-fhirMessageTypes 01}\">Establishment inactivation</span></p><h3>Sources</h3><table class=\"grid\"><tr><td>-</td><td><b>Endpoint</b></td></tr><tr><td>*</td><td><a href=\"http://example.org/\">http://example.org/</a></td></tr></table><p><b>focus</b>: </p><ul><li><a href=\"#Organization_SampleIdentifiedEstablishmentRegistrant\">See above (Organization/SampleIdentifiedEstablishmentRegistrant)</a></li><li><a href=\"#Organization_SampleIdentifiedEstablishment\">See above (Organization/SampleIdentifiedEstablishment)</a></li></ul></div>"},"eventCoding":{"system":"http://hl7.org/fhir/us/spl/CodeSystem/codesystem-fhirMessageTypes","code":"01","display":"Establishment inactivation"},"source":{"endpoint":"http://example.org/"},"focus":[{"reference":"Organization/SampleIdentifiedEstablishmentRegistrant"},{"reference":"Organization/SampleIdentifiedEstablishment"}]}},{"fullUrl":"http://example.org/Organization/SampleIdentifiedEstablishmentRegistrant","resource":{"resourceType":"Organization","id":"SampleIdentifiedEstablishmentRegistrant","meta":{"profile":["http://hl7.org/fhir/us/spl/StructureDefinition/IdentifiedEstablishmentRegistrant"]},"text":{"status":"generated","div":"<div xmlns=\"http://www.w3.org/1999/xhtml\"><p><b>Generated Narrative</b></p><p><b>identifier</b>: id: 111111111</p><p><b>type</b>: <span title=\"Codes: {http://hl7.org/fhir/us/spl/CodeSystem/codesystem-organizationTypes EstablishmentRegistrant}\">An organization that registers establishment organizations.</span></p><p><b>name</b>: REGISTRANT SERVICES INC</p></div>"},"identifier":[{"system":"urn:oid:1.3.6.1.4.1.519.1","value":"111111111"}],"type":[{"coding":[{"system":"http://hl7.org/fhir/us/spl/CodeSystem/codesystem-organizationTypes","code":"EstablishmentRegistrant"}]}],"name":"REGISTRANT SERVICES INC"}},{"fullUrl":"http://example.org/Organization/SampleIdentifiedEstablishment","resource":{"resourceType":"Organization","id":"SampleIdentifiedEstablishment","meta":{"profile":["http://hl7.org/fhir/us/spl/StructureDefinition/IdentifiedEstablishment"]},"text":{"status":"generated","div":"<div xmlns=\"http://www.w3.org/1999/xhtml\"><p><b>Generated Narrative</b></p><p><b>identifier</b>: id: 222222222</p><p><b>type</b>: <span title=\"Codes: {http://hl7.org/fhir/us/spl/CodeSystem/codesystem-organizationTypes Establishment}\">An organization that provides operations in the manufacturing of a product.</span></p><p><b>name</b>: EXAMPLE ESTABLISHMENT INC.</p></div>"},"identifier":[{"system":"urn:oid:1.3.6.1.4.1.519.1","value":"222222222"}],"type":[{"coding":[{"system":"http://hl7.org/fhir/us/spl/CodeSystem/codesystem-organizationTypes","code":"Establishment"}]}],"name":"EXAMPLE ESTABLISHMENT INC."}}]}