{"resourceType":"Bundle","id":"ExampleGDUFAFacilityInactivation","meta":{"profile":["http://hl7.org/fhir/us/spl/StructureDefinition/GDUFAFacilityInactivationBundle"]},"type":"message","timestamp":"2021-08-11T01:01:01.111+06:00","entry":[{"fullUrl":"http://example.org/MessageHeader/SampleGDUFAFacilityInactivationMessage","resource":{"resourceType":"MessageHeader","id":"SampleGDUFAFacilityInactivationMessage","meta":{"profile":["http://hl7.org/fhir/us/spl/StructureDefinition/GDUFAFacilityInactivationMessage"]},"text":{"status":"generated","div":"<div xmlns=\"http://www.w3.org/1999/xhtml\"><p><b>Generated Narrative</b></p><p><b>event</b>: <span title=\"{http://hl7.org/fhir/us/spl/CodeSystem/codesystem-fhirMessageTypes 02}\">GDUFA Facility inactivation</span></p><h3>Sources</h3><table class=\"grid\"><tr><td>-</td><td><b>Endpoint</b></td></tr><tr><td>*</td><td><a href=\"http://example.org/\">http://example.org/</a></td></tr></table><p><b>focus</b>: </p><ul><li><a href=\"#Organization_SampleIdentifiedGDUFARegistrant\">See above (Organization/SampleIdentifiedGDUFARegistrant)</a></li><li><a href=\"#Organization_SampleIdentifiedGDUFAFacility\">See above (Organization/SampleIdentifiedGDUFAFacility)</a></li></ul></div>"},"eventCoding":{"system":"http://hl7.org/fhir/us/spl/CodeSystem/codesystem-fhirMessageTypes","code":"02","display":"GDUFA Facility inactivation"},"source":{"endpoint":"http://example.org/"},"focus":[{"reference":"Organization/SampleIdentifiedGDUFARegistrant"},{"reference":"Organization/SampleIdentifiedGDUFAFacility"}]}},{"fullUrl":"http://example.org/Organization/SampleIdentifiedGDUFARegistrant","resource":{"resourceType":"Organization","id":"SampleIdentifiedGDUFARegistrant","meta":{"profile":["http://hl7.org/fhir/us/spl/StructureDefinition/IdentifiedGDUFARegistrant"]},"text":{"status":"generated","div":"<div xmlns=\"http://www.w3.org/1999/xhtml\"><p><b>Generated Narrative</b></p><p><b>identifier</b>: id: 111111111</p><p><b>type</b>: <span title=\"Codes: {http://hl7.org/fhir/us/spl/CodeSystem/codesystem-organizationTypes GDUFARegistrant}\">An organization that registers generic druge use facility organizations.</span></p><p><b>name</b>: REGISTRANT SERVICES INC</p></div>"},"identifier":[{"system":"urn:oid:1.3.6.1.4.1.519.1","value":"111111111"}],"type":[{"coding":[{"system":"http://hl7.org/fhir/us/spl/CodeSystem/codesystem-organizationTypes","code":"GDUFARegistrant"}]}],"name":"REGISTRANT SERVICES INC"}},{"fullUrl":"http://example.org/Organization/SampleIdentifiedGDUFAFacility","resource":{"resourceType":"Organization","id":"SampleIdentifiedGDUFAFacility","meta":{"profile":["http://hl7.org/fhir/us/spl/StructureDefinition/IdentifiedGDUFAFacility"]},"text":{"status":"generated","div":"<div xmlns=\"http://www.w3.org/1999/xhtml\"><p><b>Generated Narrative</b></p><p><b>identifier</b>: id: 222222222</p><p><b>type</b>: <span title=\"Codes: {http://hl7.org/fhir/us/spl/CodeSystem/codesystem-organizationTypes GenericDrugUseFacility}\">An organization that produces generic drug products.</span></p><p><b>name</b>: EXAMPLE GDUFA FACILITY INC.</p></div>"},"identifier":[{"system":"urn:oid:1.3.6.1.4.1.519.1","value":"222222222"}],"type":[{"coding":[{"system":"http://hl7.org/fhir/us/spl/CodeSystem/codesystem-organizationTypes","code":"GenericDrugUseFacility"}]}],"name":"EXAMPLE GDUFA FACILITY INC."}}]}